SubjID,RunNumber,Feedback,Version,Counterbalance,TrialNumber,TrialOnset,ChoiceOnset,Condition,LeftGrid,RightGrid,CorrectAnswer,Response,Accuracy,RT
FED_20161228a_3T2,2,y,4,1,1,16.00826096534729,20.52553701400757,Easy,"[11, 3, 10, 12]","[10, 11, 7, 3]",2,2,1,1.216742992401123
FED_20161228a_3T2,2,y,4,1,2,24.009280920028687,28.52653980255127,Easy,"[7, 8, 11, 1]","[11, 1, 8, 5]",1,1,1,1.2335000038146973
FED_20161228a_3T2,2,y,4,1,3,32.01029396057129,36.5275559425354,Easy,"[3, 12, 5, 10]","[1, 5, 12, 3]",2,2,1,1.4501910209655762
FED_20161228a_3T2,2,y,4,1,4,40.0113480091095,44.52856993675232,Easy,"[2, 3, 8, 7]","[8, 3, 2, 5]",1,1,1,1.533552885055542
FED_20161228a_3T2,2,y,4,1,5,48.01236391067505,52.54625201225281,Hard,"[10, 11, 1, 9, 2, 5, 7, 3]","[12, 1, 5, 10, 9, 8, 2, 11]",2,2,1,1.4335498809814453
FED_20161228a_3T2,2,y,4,1,6,56.013375997543335,60.53059792518616,Hard,"[11, 10, 7, 2, 3, 12, 8, 1]","[3, 2, 7, 11, 12, 9, 8, 10]",2,1,0,2.383647918701172
FED_20161228a_3T2,2,y,4,1,7,64.0143928527832,68.53167200088501,Hard,"[7, 8, 4, 5, 11, 6, 10, 12]","[10, 3, 11, 8, 7, 4, 5, 6]",2,2,1,1.2166337966918945
FED_20161228a_3T2,2,y,4,1,8,72.01542901992798,76.5326828956604,Hard,"[7, 11, 9, 12, 4, 5, 10, 2]","[4, 5, 8, 6, 11, 12, 7, 9]",2,2,1,1.1501240730285645
FED_20161228a_3T2,2,y,4,1,9,80.0164430141449,84.51701998710632,Hard,"[3, 5, 4, 9, 7, 8, 2, 11]","[8, 5, 4, 2, 1, 3, 7, 9]",2,2,1,1.4168288707733154
FED_20161228a_3T2,2,y,4,1,10,88.00067782402039,92.51800084114075,Hard,"[11, 4, 8, 7, 1, 10, 2, 9]","[11, 7, 1, 3, 4, 2, 10, 8]",2,2,1,1.316850185394287
FED_20161228a_3T2,2,y,4,1,11,96.00175786018372,100.51900887489319,Hard,"[7, 1, 6, 8, 10, 2, 5, 9]","[8, 9, 2, 1, 10, 7, 6, 4]",1,1,1,1.700214147567749
FED_20161228a_3T2,2,y,4,1,12,104.00280094146729,108.52002000808716,Hard,"[8, 6, 3, 10, 7, 5, 4, 11]","[6, 10, 8, 7, 11, 3, 12, 1]",1,1,1,0.9834799766540527
FED_20161228a_3T2,2,y,4,1,13,112.00380682945251,116.52101302146912,Easy,"[1, 3, 12, 11]","[1, 3, 4, 12]",2,2,1,1.2334959506988525
FED_20161228a_3T2,2,y,4,1,14,120.00481081008911,124.52205991744995,Easy,"[8, 9, 5, 11]","[8, 5, 7, 9]",2,2,1,1.3501451015472412
FED_20161228a_3T2,2,y,4,1,15,128.0058078765869,132.52305793762207,Easy,"[4, 6, 5, 3]","[6, 4, 7, 5]",2,2,1,1.1668200492858887
FED_20161228a_3T2,2,y,4,1,16,136.00671195983887,140.52409100532532,Easy,"[8, 4, 9, 7]","[4, 12, 9, 8]",2,2,1,0.9667279720306396
FED_20161228a_3T2,2,y,4,1,17,160.00984501838684,164.52705192565918,Hard,"[9, 2, 1, 4, 11, 10, 5, 3]","[3, 10, 11, 4, 1, 2, 8, 7]",1,2,0,1.9502370357513428
FED_20161228a_3T2,2,y,4,1,18,168.01086282730103,172.52808690071106,Hard,"[3, 5, 10, 11, 4, 8, 7, 1]","[4, 11, 1, 5, 10, 8, 3, 9]",1,1,1,1.6835739612579346
FED_20161228a_3T2,2,y,4,1,19,176.01189184188843,180.5291669368744,Hard,"[8, 2, 1, 4, 11, 7, 5, 9]","[8, 1, 7, 5, 2, 4, 3, 12]",1,1,1,1.6001770496368408
FED_20161228a_3T2,2,y,4,1,20,184.01293301582336,188.56350183486938,Hard,"[9, 4, 2, 8, 10, 12, 11, 5]","[4, 9, 2, 1, 10, 8, 3, 12]",2,2,1,1.1333801746368408
FED_20161228a_3T2,2,y,4,1,21,192.0139479637146,196.53116703033447,Easy,"[9, 4, 3, 7]","[4, 3, 2, 9]",2,2,1,1.0835318565368652
FED_20161228a_3T2,2,y,4,1,22,200.0149908065796,204.53225684165955,Easy,"[3, 1, 11, 10]","[11, 10, 3, 2]",1,1,1,1.383531093597412
FED_20161228a_3T2,2,y,4,1,23,208.0160689353943,212.53329491615295,Easy,"[5, 8, 7, 12]","[7, 10, 5, 8]",2,2,1,1.4168720245361328
FED_20161228a_3T2,2,y,4,1,24,216.0004289150238,220.51766991615295,Easy,"[2, 5, 12, 7]","[7, 2, 5, 4]",1,1,1,1.2834970951080322
FED_20161228a_3T2,2,y,4,1,25,224.00144982337952,228.51869702339172,Easy,"[10, 11, 5, 12]","[5, 12, 10, 8]",1,1,1,1.0834767818450928
FED_20161228a_3T2,2,y,4,1,26,232.00249791145325,236.51976490020752,Easy,"[12, 11, 5, 10]","[11, 7, 5, 12]",2,2,1,1.50018310546875
FED_20161228a_3T2,2,y,4,1,27,240.00352597236633,244.52079701423645,Easy,"[9, 12, 5, 7]","[7, 9, 12, 6]",1,1,1,1.3668229579925537
FED_20161228a_3T2,2,y,4,1,28,248.00457382202148,252.52182984352112,Easy,"[5, 6, 12, 2]","[5, 2, 12, 8]",1,1,1,1.1668250560760498
FED_20161228a_3T2,2,y,4,1,29,256.02229285240173,260.5228579044342,Hard,"[3, 11, 8, 2, 5, 12, 10, 9]","[2, 9, 8, 11, 3, 10, 7, 6]",1,1,1,1.5001790523529053
FED_20161228a_3T2,2,y,4,1,30,264.0065059661865,268.52389192581177,Hard,"[7, 2, 10, 8, 9, 11, 12, 1]","[9, 1, 12, 7, 2, 8, 10, 6]",1,1,1,1.7335689067840576
FED_20161228a_3T2,2,y,4,1,31,272.00760197639465,276.52493596076965,Hard,"[9, 4, 12, 11, 8, 2, 1, 10]","[4, 8, 2, 9, 11, 1, 5, 6]",1,1,1,1.0501039028167725
FED_20161228a_3T2,2,y,4,1,32,280.0086989402771,284.5259590148926,Hard,"[5, 7, 3, 2, 8, 4, 9, 12]","[7, 1, 2, 5, 9, 8, 3, 4]",2,1,0,1.6168949604034424
FED_20161228a_3T2,2,y,4,1,33,304.0117609500885,308.5289900302887,Easy,"[11, 4, 7, 9]","[11, 4, 9, 3]",1,1,1,1.6502439975738525
FED_20161228a_3T2,2,y,4,1,34,312.012797832489,316.53005385398865,Easy,"[11, 12, 10, 4]","[12, 1, 10, 11]",2,2,1,1.6668760776519775
FED_20161228a_3T2,2,y,4,1,35,320.0138130187988,324.5309808254242,Easy,"[3, 11, 5, 8]","[11, 5, 8, 12]",1,1,1,1.2002451419830322
FED_20161228a_3T2,2,y,4,1,36,328.0148630142212,332.5320909023285,Easy,"[2, 7, 3, 10]","[2, 7, 3, 5]",2,2,1,1.6835319995880127
FED_20161228a_3T2,2,y,4,1,37,336.01589798927307,340.5331029891968,Hard,"[5, 2, 11, 10, 9, 6, 4, 8]","[5, 11, 2, 6, 4, 10, 1, 3]",1,1,1,2.0836009979248047
FED_20161228a_3T2,2,y,4,1,38,344.00021982192993,348.5174448490143,Hard,"[2, 5, 8, 7, 11, 12, 3, 10]","[2, 7, 6, 5, 11, 1, 12, 8]",2,1,0,2.150282144546509
FED_20161228a_3T2,2,y,4,1,39,352.001238822937,356.5184998512268,Hard,"[11, 10, 2, 3, 12, 8, 5, 7]","[8, 10, 4, 6, 11, 2, 12, 3]",2,1,0,1.583517074584961
FED_20161228a_3T2,2,y,4,1,40,360.0022518634796,364.5195059776306,Hard,"[3, 8, 10, 4, 1, 12, 2, 6]","[8, 1, 4, 2, 10, 12, 11, 5]",1,1,1,2.38360595703125
FED_20161228a_3T2,2,y,4,1,41,368.0032639503479,372.5205578804016,Hard,"[10, 12, 9, 6, 3, 2, 1, 11]","[10, 3, 9, 6, 8, 12, 4, 2]",2,2,1,1.4002010822296143
FED_20161228a_3T2,2,y,4,1,42,376.00432896614075,380.5216019153595,Hard,"[2, 11, 9, 7, 6, 5, 10, 8]","[7, 6, 12, 2, 11, 5, 1, 9]",2,2,1,1.900252103805542
FED_20161228a_3T2,2,y,4,1,43,384.00540590286255,388.52264285087585,Hard,"[8, 9, 4, 10, 6, 7, 2, 1]","[3, 4, 2, 9, 8, 7, 6, 10]",2,2,1,2.1336209774017334
FED_20161228a_3T2,2,y,4,1,44,392.0231239795685,396.52362394332886,Hard,"[8, 3, 9, 12, 11, 7, 6, 5]","[3, 9, 10, 7, 8, 4, 12, 11]",2,2,1,1.2835350036621094
FED_20161228a_3T2,2,y,4,1,45,400.0074508190155,404.52469396591187,Easy,"[1, 9, 12, 8]","[9, 8, 1, 4]",1,1,1,1.8169329166412354
FED_20161228a_3T2,2,y,4,1,46,408.0084969997406,412.52572989463806,Easy,"[12, 3, 9, 6]","[3, 6, 9, 4]",1,1,1,1.4835350513458252
FED_20161228a_3T2,2,y,4,1,47,416.00953483581543,420.5268008708954,Easy,"[7, 3, 10, 5]","[5, 7, 10, 11]",1,1,1,1.3168129920959473
FED_20161228a_3T2,2,y,4,1,48,424.010568857193,428.52783489227295,Easy,"[10, 9, 11, 2]","[10, 2, 9, 8]",1,1,1,1.5501770973205566
