SubjID,RunNumber,Feedback,Version,Counterbalance,TrialNumber,TrialOnset,ChoiceOnset,Condition,LeftGrid,RightGrid,CorrectAnswer,Response,Accuracy,RT
FED_20161228e_3T2,1,y,4,1,1,16.00798797607422,20.525236129760742,Easy,"[2, 9, 3, 8]","[6, 3, 9, 2]",2,,0,
FED_20161228e_3T2,1,y,4,1,2,24.008994102478027,28.526260137557983,Easy,"[3, 8, 7, 9]","[7, 8, 3, 4]",1,1,1,1.7835559844970703
FED_20161228e_3T2,1,y,4,1,3,32.00998497009277,36.52725410461426,Easy,"[11, 1, 12, 2]","[12, 1, 3, 11]",2,2,1,1.6335389614105225
FED_20161228e_3T2,1,y,4,1,4,40.01101112365723,44.561599016189575,Easy,"[7, 3, 10, 1]","[1, 3, 7, 2]",1,1,1,2.1335959434509277
FED_20161228e_3T2,1,y,4,1,5,48.01203799247742,52.52928805351257,Hard,"[5, 4, 11, 2, 6, 1, 9, 7]","[11, 5, 1, 10, 3, 4, 2, 6]",2,1,0,1.4668269157409668
FED_20161228e_3T2,1,y,4,1,6,56.01304602622986,60.5303111076355,Hard,"[3, 2, 5, 10, 6, 9, 12, 8]","[10, 5, 7, 3, 2, 6, 11, 9]",2,1,0,1.7168619632720947
FED_20161228e_3T2,1,y,4,1,7,64.01413202285767,68.53132796287537,Hard,"[7, 2, 8, 12, 1, 3, 11, 9]","[8, 2, 3, 11, 7, 12, 1, 4]",2,1,0,2.383604049682617
FED_20161228e_3T2,1,y,4,1,8,72.01508498191833,76.53232407569885,Hard,"[7, 1, 11, 6, 10, 2, 12, 9]","[1, 7, 9, 10, 12, 6, 11, 8]",1,2,0,2.2001988887786865
FED_20161228e_3T2,1,y,4,1,9,80.01610898971558,84.53332614898682,Hard,"[5, 12, 3, 2, 4, 8, 9, 10]","[6, 4, 12, 2, 11, 3, 8, 5]",2,,0,
FED_20161228e_3T2,1,y,4,1,10,88.00040602684021,92.5176830291748,Hard,"[1, 2, 8, 10, 5, 3, 7, 11]","[7, 2, 3, 8, 1, 5, 9, 12]",1,1,1,2.116943120956421
FED_20161228e_3T2,1,y,4,1,11,96.00143718719482,100.51871299743652,Hard,"[9, 8, 11, 6, 10, 4, 5, 2]","[8, 7, 10, 4, 5, 9, 11, 6]",2,2,1,1.7668581008911133
FED_20161228e_3T2,1,y,4,1,12,104.00248408317566,108.51956009864807,Hard,"[2, 10, 4, 3, 6, 12, 5, 7]","[1, 8, 12, 10, 4, 6, 2, 3]",2,2,1,1.6336970329284668
FED_20161228e_3T2,1,y,4,1,13,112.00348401069641,116.52071809768677,Easy,"[5, 9, 3, 7]","[5, 3, 9, 8]",1,1,1,2.883643865585327
FED_20161228e_3T2,1,y,4,1,14,120.00449419021606,124.52171516418457,Easy,"[11, 10, 4, 6]","[11, 10, 6, 8]",1,1,1,1.6335618495941162
FED_20161228e_3T2,1,y,4,1,15,128.00548815727234,132.52274799346924,Easy,"[5, 2, 10, 6]","[7, 10, 2, 5]",2,2,1,1.2167561054229736
FED_20161228e_3T2,1,y,4,1,16,136.00650000572205,140.52377200126648,Easy,"[8, 2, 6, 5]","[6, 8, 2, 4]",2,2,1,1.016767978668213
FED_20161228e_3T2,1,y,4,1,17,160.0095100402832,164.52675795555115,Hard,"[9, 7, 2, 5, 6, 11, 3, 12]","[5, 7, 6, 11, 2, 9, 8, 4]",2,2,1,1.2001640796661377
FED_20161228e_3T2,1,y,4,1,18,168.01054215431213,172.52776312828064,Hard,"[7, 9, 6, 11, 8, 5, 12, 10]","[5, 12, 10, 11, 9, 6, 1, 3]",1,1,1,1.8169260025024414
FED_20161228e_3T2,1,y,4,1,19,176.01154899597168,180.52871918678284,Hard,"[8, 10, 5, 7, 12, 9, 2, 3]","[8, 9, 6, 11, 7, 10, 5, 12]",2,2,1,1.9669959545135498
FED_20161228e_3T2,1,y,4,1,20,184.01258611679077,188.52980399131775,Hard,"[6, 1, 10, 5, 7, 4, 9, 3]","[1, 3, 6, 9, 7, 4, 10, 8]",1,2,0,2.3836469650268555
FED_20161228e_3T2,1,y,4,1,21,192.01359701156616,196.5308530330658,Easy,"[3, 2, 12, 9]","[3, 10, 12, 2]",2,2,1,1.8002209663391113
FED_20161228e_3T2,1,y,4,1,22,200.01461601257324,204.5318570137024,Easy,"[6, 3, 1, 8]","[3, 6, 1, 10]",1,1,1,1.8002450466156006
FED_20161228e_3T2,1,y,4,1,23,208.0156741142273,212.53285598754883,Easy,"[3, 12, 5, 9]","[3, 5, 12, 11]",1,1,1,1.6835811138153076
FED_20161228e_3T2,1,y,4,1,24,216.01665115356445,220.51720213890076,Easy,"[7, 11, 2, 10]","[2, 3, 7, 11]",2,1,0,1.350113868713379
FED_20161228e_3T2,1,y,4,1,25,224.00099301338196,228.51824307441711,Easy,"[3, 9, 2, 8]","[3, 9, 2, 5]",1,1,1,1.533545970916748
FED_20161228e_3T2,1,y,4,1,26,232.00203013420105,236.51924014091492,Easy,"[5, 4, 2, 11]","[9, 5, 4, 2]",2,2,1,2.1669559478759766
FED_20161228e_3T2,1,y,4,1,27,240.00304007530212,244.52029514312744,Easy,"[8, 9, 10, 6]","[10, 6, 8, 7]",1,1,1,1.3335089683532715
FED_20161228e_3T2,1,y,4,1,28,248.00407600402832,252.52121305465698,Easy,"[11, 12, 1, 2]","[11, 1, 12, 9]",2,2,1,1.7836740016937256
FED_20161228e_3T2,1,y,4,1,29,256.00508308410645,260.52232909202576,Hard,"[5, 10, 6, 7, 11, 8, 9, 1]","[5, 11, 8, 10, 6, 7, 3, 12]",2,2,1,1.6001880168914795
FED_20161228e_3T2,1,y,4,1,30,264.0060930252075,268.52333402633667,Hard,"[7, 11, 6, 10, 2, 12, 4, 1]","[11, 3, 12, 2, 10, 8, 7, 6]",2,2,1,2.2669990062713623
FED_20161228e_3T2,1,y,4,1,31,272.0070571899414,276.5243511199951,Hard,"[5, 8, 10, 3, 4, 12, 6, 2]","[9, 5, 6, 10, 4, 8, 12, 3]",2,2,1,2.100263833999634
FED_20161228e_3T2,1,y,4,1,32,280.00813007354736,284.52538108825684,Hard,"[7, 6, 11, 1, 2, 4, 12, 9]","[5, 4, 7, 2, 6, 8, 1, 11]",2,2,1,2.3669378757476807
FED_20161228e_3T2,1,y,4,1,33,304.0112190246582,308.52846598625183,Easy,"[1, 9, 7, 3]","[3, 1, 9, 10]",1,1,1,1.466737985610962
FED_20161228e_3T2,1,y,4,1,34,312.012225151062,316.5293650627136,Easy,"[10, 9, 8, 12]","[10, 9, 12, 3]",1,1,1,2.23363995552063
FED_20161228e_3T2,1,y,4,1,35,320.0132281780243,324.5304491519928,Easy,"[10, 11, 12, 2]","[11, 12, 10, 9]",1,1,1,1.6835768222808838
FED_20161228e_3T2,1,y,4,1,36,328.0142431259155,332.5314950942993,Easy,"[1, 5, 2, 3]","[2, 5, 1, 11]",1,1,1,1.3501570224761963
FED_20161228e_3T2,1,y,4,1,37,336.0152759552002,340.53250908851624,Hard,"[9, 5, 1, 10, 8, 4, 11, 7]","[8, 4, 11, 9, 10, 5, 12, 1]",2,1,0,1.8835630416870117
FED_20161228e_3T2,1,y,4,1,38,344.0162920951843,348.53349900245667,Hard,"[6, 3, 7, 4, 10, 5, 11, 8]","[3, 5, 8, 4, 6, 10, 1, 2]",1,1,1,2.567028045654297
FED_20161228e_3T2,1,y,4,1,39,352.00063014030457,356.5178861618042,Hard,"[8, 4, 1, 9, 2, 5, 10, 6]","[5, 10, 8, 2, 4, 9, 7, 11]",1,1,1,1.400177001953125
FED_20161228e_3T2,1,y,4,1,40,360.0016350746155,364.5188801288605,Hard,"[9, 8, 11, 4, 3, 12, 5, 10]","[5, 9, 4, 8, 3, 12, 7, 11]",2,2,1,1.8335800170898438
FED_20161228e_3T2,1,y,4,1,41,368.00268602371216,372.5198881626129,Hard,"[9, 7, 10, 5, 6, 2, 11, 4]","[1, 2, 10, 8, 7, 9, 6, 5]",2,2,1,2.9004018306732178
FED_20161228e_3T2,1,y,4,1,42,376.00369906425476,380.5209331512451,Hard,"[2, 6, 10, 9, 5, 3, 7, 4]","[5, 2, 3, 9, 6, 7, 10, 8]",2,2,1,1.4001538753509521
FED_20161228e_3T2,1,y,4,1,43,384.00463008880615,388.52193903923035,Hard,"[6, 7, 9, 10, 12, 3, 11, 2]","[10, 11, 12, 6, 7, 9, 3, 5]",2,2,1,1.7502119541168213
FED_20161228e_3T2,1,y,4,1,44,392.00574111938477,396.52296018600464,Hard,"[5, 1, 11, 3, 2, 8, 7, 10]","[2, 1, 8, 3, 10, 11, 5, 4]",1,1,1,1.3167638778686523
FED_20161228e_3T2,1,y,4,1,45,400.0067789554596,404.52402114868164,Easy,"[9, 11, 2, 10]","[9, 11, 10, 1]",1,1,1,1.2834899425506592
FED_20161228e_3T2,1,y,4,1,46,408.0076541900635,412.5250120162964,Easy,"[3, 5, 8, 11]","[8, 3, 4, 5]",2,2,1,2.4670021533966064
FED_20161228e_3T2,1,y,4,1,47,416.00877618789673,420.5259611606598,Easy,"[8, 4, 6, 1]","[6, 8, 2, 4]",2,2,1,2.100332021713257
FED_20161228e_3T2,1,y,4,1,48,424.009840965271,428.5270690917969,Easy,"[6, 3, 7, 5]","[3, 5, 7, 12]",1,1,1,1.016784906387329
