SubjID,RunNumber,Feedback,Version,Counterbalance,TrialNumber,TrialOnset,ChoiceOnset,Condition,LeftGrid,RightGrid,CorrectAnswer,Response,Accuracy,RT
FED_20161227b_3T2,2,y,4,2,1,16.008865118026733,20.526149034500122,Hard,"[6, 7, 11, 2, 4, 3, 12, 10]","[8, 4, 11, 12, 7, 3, 2, 6]",2,,0,
FED_20161227b_3T2,2,y,4,2,2,24.009953022003174,28.527206897735596,Hard,"[2, 10, 8, 6, 9, 5, 3, 4]","[2, 4, 6, 5, 9, 8, 11, 1]",1,1,1,1.50018310546875
FED_20161227b_3T2,2,y,4,2,3,32.010979890823364,36.528202056884766,Hard,"[5, 10, 4, 9, 8, 6, 7, 3]","[8, 3, 9, 6, 7, 5, 4, 1]",1,1,1,2.2002968788146973
FED_20161227b_3T2,2,y,4,2,4,40.01198196411133,44.52925896644592,Hard,"[12, 10, 11, 2, 9, 3, 4, 5]","[9, 3, 11, 12, 6, 10, 7, 2]",2,2,1,1.4001820087432861
FED_20161227b_3T2,2,y,4,2,5,48.013044118881226,52.53025698661804,Easy,"[6, 7, 3, 8]","[3, 6, 11, 7]",2,2,1,0.5500879287719727
FED_20161227b_3T2,2,y,4,2,6,56.01402497291565,60.53131103515625,Easy,"[1, 12, 8, 6]","[12, 8, 5, 1]",2,1,0,0.7667429447174072
FED_20161227b_3T2,2,y,4,2,7,64.01509094238281,68.53230690956116,Easy,"[5, 11, 8, 7]","[5, 1, 11, 8]",2,2,1,1.200200080871582
FED_20161227b_3T2,2,y,4,2,8,72.01615309715271,76.53336000442505,Easy,"[6, 2, 9, 8]","[8, 9, 2, 10]",1,1,1,2.0169379711151123
FED_20161227b_3T2,2,y,4,2,9,80.00048494338989,84.55109000205994,Easy,"[12, 5, 9, 10]","[1, 5, 9, 12]",2,2,1,0.8833520412445068
FED_20161227b_3T2,2,y,4,2,10,88.00153088569641,92.51874494552612,Easy,"[4, 1, 6, 9]","[6, 4, 1, 11]",1,1,1,0.7667980194091797
FED_20161227b_3T2,2,y,4,2,11,96.0025360584259,100.51980590820312,Easy,"[2, 4, 9, 11]","[4, 2, 11, 8]",1,1,1,1.4167671203613281
FED_20161227b_3T2,2,y,4,2,12,104.00358390808105,108.52082991600037,Easy,"[5, 12, 10, 1]","[5, 1, 12, 6]",1,1,1,1.1001811027526855
FED_20161227b_3T2,2,y,4,2,13,112.00467610359192,116.5218551158905,Hard,"[10, 12, 11, 7, 6, 5, 8, 1]","[5, 7, 6, 1, 11, 10, 9, 4]",1,1,1,1.1668329238891602
FED_20161227b_3T2,2,y,4,2,14,120.00551795959473,124.52291798591614,Hard,"[12, 2, 5, 11, 3, 9, 4, 8]","[6, 11, 3, 5, 2, 9, 10, 12]",2,2,1,1.5002100467681885
FED_20161227b_3T2,2,y,4,2,15,128.00667095184326,132.5239119529724,Hard,"[2, 1, 10, 6, 7, 9, 11, 12]","[10, 2, 3, 6, 7, 9, 5, 1]",2,1,0,0.7500979900360107
FED_20161227b_3T2,2,y,4,2,16,136.0076630115509,140.52496910095215,Hard,"[11, 6, 1, 5, 7, 12, 8, 2]","[7, 12, 10, 6, 8, 1, 11, 5]",2,2,1,1.450145959854126
FED_20161227b_3T2,2,y,4,2,17,160.01079607009888,164.52808904647827,Easy,"[11, 4, 6, 10]","[11, 5, 4, 6]",2,2,1,1.2167940139770508
FED_20161227b_3T2,2,y,4,2,18,168.01185607910156,172.52907991409302,Easy,"[4, 8, 5, 11]","[4, 10, 5, 8]",2,2,1,1.1001629829406738
FED_20161227b_3T2,2,y,4,2,19,176.01285910606384,180.5301389694214,Easy,"[6, 10, 8, 2]","[10, 6, 5, 8]",2,2,1,0.8834121227264404
FED_20161227b_3T2,2,y,4,2,20,184.01391792297363,188.53113102912903,Easy,"[3, 8, 11, 4]","[11, 4, 8, 7]",1,1,1,0.9668190479278564
FED_20161227b_3T2,2,y,4,2,21,192.01491904258728,196.53219294548035,Hard,"[5, 6, 4, 11, 2, 1, 8, 12]","[5, 2, 8, 6, 11, 4, 12, 7]",1,2,0,0.9000811576843262
FED_20161227b_3T2,2,y,4,2,22,200.0159649848938,204.53319096565247,Hard,"[10, 4, 11, 8, 2, 7, 1, 12]","[4, 7, 2, 11, 10, 1, 8, 6]",2,2,1,1.3502230644226074
FED_20161227b_3T2,2,y,4,2,23,208.00036001205444,212.51760292053223,Hard,"[9, 7, 1, 2, 11, 8, 4, 12]","[9, 11, 2, 4, 1, 5, 7, 8]",2,2,1,2.8503901958465576
FED_20161227b_3T2,2,y,4,2,24,216.0013780593872,220.53532910346985,Hard,"[2, 4, 6, 9, 12, 11, 5, 1]","[9, 11, 5, 2, 3, 12, 6, 4]",2,2,1,1.8668789863586426
FED_20161227b_3T2,2,y,4,2,25,224.0024139881134,228.51965308189392,Hard,"[10, 12, 8, 7, 6, 5, 1, 11]","[5, 7, 6, 1, 11, 8, 12, 2]",1,2,0,1.5334649085998535
FED_20161227b_3T2,2,y,4,2,26,232.00334692001343,236.52068710327148,Hard,"[2, 3, 5, 10, 1, 4, 6, 11]","[3, 11, 4, 10, 6, 2, 12, 7]",1,1,1,1.0834429264068604
FED_20161227b_3T2,2,y,4,2,27,240.0044960975647,244.52168488502502,Hard,"[4, 8, 3, 10, 2, 7, 1, 6]","[7, 10, 2, 6, 4, 1, 8, 11]",1,,0,
FED_20161227b_3T2,2,y,4,2,28,248.00557804107666,252.52273797988892,Hard,"[7, 5, 2, 9, 11, 8, 3, 6]","[11, 7, 9, 8, 5, 12, 2, 1]",2,2,1,1.0334420204162598
FED_20161227b_3T2,2,y,4,2,29,256.006520986557,260.52381205558777,Easy,"[5, 11, 1, 8]","[1, 11, 5, 10]",2,2,1,1.4334938526153564
FED_20161227b_3T2,2,y,4,2,30,264.00756907463074,268.5248041152954,Easy,"[9, 8, 10, 1]","[8, 10, 1, 4]",1,1,1,0.8834609985351562
FED_20161227b_3T2,2,y,4,2,31,272.00857496261597,276.5258619785309,Easy,"[9, 1, 7, 12]","[12, 1, 7, 4]",1,1,1,1.2167859077453613
FED_20161227b_3T2,2,y,4,2,32,280.00963497161865,284.52686309814453,Easy,"[2, 12, 3, 1]","[3, 1, 2, 10]",1,1,1,1.8335587978363037
FED_20161227b_3T2,2,y,4,2,33,304.0127499103546,308.52996492385864,Hard,"[2, 8, 7, 10, 11, 1, 4, 3]","[8, 2, 4, 10, 1, 6, 7, 11]",2,2,1,1.266813039779663
FED_20161227b_3T2,2,y,4,2,34,312.0137689113617,316.53105211257935,Hard,"[2, 5, 4, 8, 10, 6, 11, 3]","[3, 4, 8, 10, 5, 11, 6, 1]",1,1,1,1.3501338958740234
FED_20161227b_3T2,2,y,4,2,35,320.0148289203644,324.5320179462433,Hard,"[9, 11, 6, 2, 8, 7, 5, 3]","[9, 12, 2, 6, 7, 5, 8, 11]",2,2,1,1.4669041633605957
FED_20161227b_3T2,2,y,4,2,36,328.0158190727234,332.5330150127411,Hard,"[5, 2, 4, 11, 8, 12, 3, 1]","[12, 4, 3, 2, 5, 8, 7, 6]",1,1,1,1.2500989437103271
FED_20161227b_3T2,2,y,4,2,37,336.000186920166,340.51746702194214,Easy,"[4, 5, 1, 9]","[4, 2, 1, 5]",2,1,0,1.1167869567871094
FED_20161227b_3T2,2,y,4,2,38,344.00123500823975,348.5184679031372,Easy,"[11, 9, 6, 3]","[6, 9, 3, 10]",1,1,1,1.2501070499420166
FED_20161227b_3T2,2,y,4,2,39,352.0022430419922,356.5194571018219,Easy,"[10, 3, 12, 8]","[10, 12, 3, 7]",2,2,1,0.6834537982940674
FED_20161227b_3T2,2,y,4,2,40,360.00329995155334,364.5205190181732,Easy,"[5, 6, 12, 1]","[5, 6, 3, 12]",2,2,1,0.9001569747924805
FED_20161227b_3T2,2,y,4,2,41,368.00429701805115,372.52157497406006,Easy,"[5, 9, 7, 8]","[9, 4, 7, 5]",2,2,1,0.7667350769042969
FED_20161227b_3T2,2,y,4,2,42,376.0053598880768,380.52256989479065,Easy,"[8, 9, 7, 3]","[9, 7, 3, 5]",1,1,1,0.8834800720214844
FED_20161227b_3T2,2,y,4,2,43,384.00641202926636,388.52363300323486,Easy,"[11, 3, 7, 4]","[3, 11, 9, 7]",2,2,1,0.7501189708709717
FED_20161227b_3T2,2,y,4,2,44,392.00740790367126,396.524689912796,Easy,"[3, 1, 4, 10]","[3, 8, 1, 4]",2,2,1,1.2334730625152588
FED_20161227b_3T2,2,y,4,2,45,400.00847601890564,404.5256860256195,Hard,"[10, 5, 2, 4, 8, 1, 6, 9]","[4, 2, 1, 9, 6, 5, 11, 12]",1,1,1,0.8167998790740967
FED_20161227b_3T2,2,y,4,2,46,408.0094630718231,412.5267450809479,Hard,"[1, 8, 2, 6, 10, 5, 4, 9]","[2, 9, 8, 10, 5, 6, 4, 12]",1,1,1,0.8168079853057861
FED_20161227b_3T2,2,y,4,2,47,416.0105469226837,420.52782797813416,Hard,"[11, 6, 8, 2, 3, 12, 7, 10]","[12, 8, 6, 3, 11, 4, 7, 2]",2,2,1,0.6500439643859863
FED_20161227b_3T2,2,y,4,2,48,424.0114800930023,428.5288050174713,Hard,"[10, 11, 7, 8, 1, 12, 2, 3]","[2, 1, 10, 12, 11, 3, 6, 4]",1,1,1,1.0668609142303467
